Vernier Format 2
187_act9.txt 7/15/116 14:29:53
Run 1
Wavelength	Intensity	
W	I	
nm	rel	

380.50	0.017	
381.30	0.017	
382.20	0.017	
383.10	0.016	
384.00	0.016	
384.90	0.016	
385.80	0.016	
386.70	0.017	
387.60	0.017	
388.50	0.017	
389.40	0.016	
390.20	0.016	
391.10	0.016	
392.00	0.016	
392.90	0.016	
393.80	0.016	
394.70	0.016	
395.60	0.016	
396.50	0.016	
397.40	0.017	
398.30	0.017	
399.10	0.016	
400.00	0.016	
400.90	0.016	
401.80	0.016	
402.70	0.016	
403.60	0.015	
404.50	0.015	
405.40	0.016	
406.30	0.016	
407.20	0.016	
408.00	0.016	
408.90	0.016	
409.80	0.015	
410.70	0.015	
411.60	0.015	
412.50	0.016	
413.40	0.016	
414.30	0.016	
415.20	0.017	
416.00	0.016	
416.90	0.016	
417.80	0.017	
418.70	0.017	
419.60	0.017	
420.50	0.016	
421.40	0.017	
422.30	0.016	
423.20	0.017	
424.10	0.017	
424.90	0.017	
425.80	0.017	
426.70	0.017	
427.60	0.017	
428.50	0.016	
429.40	0.016	
430.30	0.017	
431.20	0.017	
432.10	0.017	
433.00	0.017	
433.80	0.017	
434.70	0.017	
435.60	0.017	
436.50	0.017	
437.40	0.016	
438.30	0.016	
439.20	0.016	
440.10	0.017	
441.00	0.017	
441.90	0.017	
442.70	0.017	
443.60	0.017	
444.50	0.017	
445.40	0.017	
446.30	0.017	
447.20	0.018	
448.10	0.017	
449.00	0.017	
449.90	0.017	
450.80	0.017	
451.60	0.017	
452.50	0.017	
453.40	0.016	
454.30	0.016	
455.20	0.016	
456.10	0.015	
457.00	0.015	
457.90	0.015	
458.80	0.015	
459.60	0.015	
460.50	0.016	
461.40	0.016	
462.30	0.016	
463.20	0.016	
464.10	0.016	
465.00	0.016	
465.90	0.016	
466.80	0.016	
467.70	0.016	
468.50	0.016	
469.40	0.016	
470.30	0.016	
471.20	0.016	
472.10	0.016	
473.00	0.016	
473.90	0.015	
474.80	0.015	
475.70	0.016	
476.60	0.016	
477.40	0.017	
478.30	0.016	
479.20	0.016	
480.10	0.017	
481.00	0.017	
481.90	0.017	
482.80	0.017	
483.70	0.017	
484.60	0.017	
485.50	0.017	
486.30	0.018	
487.20	0.018	
488.10	0.018	
489.00	0.017	
489.90	0.017	
490.80	0.017	
491.70	0.018	
492.60	0.018	
493.50	0.018	
494.40	0.018	
495.20	0.019	
496.10	0.019	
497.00	0.019	
497.90	0.019	
498.80	0.018	
499.70	0.018	
500.60	0.017	
501.50	0.017	
502.40	0.016	
503.20	0.016	
504.10	0.016	
505.00	0.015	
505.90	0.015	
506.80	0.016	
507.70	0.016	
508.60	0.016	
509.50	0.016	
510.40	0.015	
511.30	0.016	
512.20	0.015	
513.00	0.016	
513.80	0.016	
514.60	0.016	
515.50	0.016	
516.30	0.016	
517.10	0.016	
517.90	0.016	
518.80	0.016	
519.60	0.016	
520.40	0.016	
521.20	0.016	
522.10	0.015	
522.90	0.015	
523.70	0.015	
524.50	0.016	
525.40	0.016	
526.20	0.016	
527.00	0.016	
527.80	0.016	
528.70	0.016	
529.50	0.016	
530.30	0.016	
531.10	0.016	
532.00	0.016	
532.80	0.016	
533.60	0.016	
534.50	0.016	
535.30	0.016	
536.10	0.016	
536.90	0.015	
537.80	0.015	
538.60	0.015	
539.40	0.015	
540.20	0.016	
541.10	0.016	
541.90	0.016	
542.70	0.016	
543.50	0.015	
544.40	0.015	
545.20	0.016	
546.00	0.016	
546.80	0.016	
547.70	0.015	
548.50	0.016	
549.30	0.016	
550.10	0.016	
551.00	0.017	
551.80	0.017	
552.60	0.017	
553.50	0.017	
554.30	0.016	
555.10	0.016	
555.90	0.016	
556.80	0.017	
557.60	0.017	
558.40	0.017	
559.20	0.017	
560.10	0.016	
560.90	0.016	
561.70	0.017	
562.50	0.017	
563.40	0.017	
564.20	0.017	
565.00	0.017	
565.80	0.017	
566.70	0.017	
567.50	0.017	
568.30	0.017	
569.10	0.017	
570.00	0.017	
570.80	0.017	
571.60	0.017	
572.40	0.017	
573.30	0.017	
574.10	0.018	
574.90	0.018	
575.80	0.018	
576.60	0.019	
577.40	0.019	
578.20	0.020	
579.10	0.020	
579.90	0.022	
580.70	0.022	
581.50	0.025	
582.40	0.033	
583.20	0.053	
584.00	0.108	
584.80	0.197	
585.70	0.242	
586.50	0.202	
587.30	0.106	
588.10	0.042	
588.90	0.024	
589.60	0.021	
590.40	0.020	
591.10	0.019	
591.90	0.019	
592.60	0.018	
593.40	0.019	
594.10	0.019	
594.90	0.018	
595.60	0.018	
596.40	0.018	
597.10	0.018	
597.90	0.018	
598.60	0.018	
599.40	0.017	
600.10	0.017	
600.90	0.017	
601.60	0.017	
602.40	0.017	
603.10	0.017	
603.90	0.017	
604.60	0.017	
605.40	0.017	
606.10	0.017	
606.90	0.016	
607.70	0.016	
608.40	0.016	
609.20	0.016	
609.90	0.016	
610.70	0.017	
611.40	0.016	
612.20	0.016	
612.90	0.016	
613.70	0.016	
614.40	0.016	
615.20	0.016	
615.90	0.016	
616.70	0.016	
617.40	0.016	
618.20	0.016	
618.90	0.016	
619.70	0.016	
620.40	0.017	
621.20	0.016	
621.90	0.016	
622.70	0.016	
623.40	0.016	
624.20	0.016	
624.90	0.016	
625.70	0.016	
626.40	0.017	
627.20	0.016	
627.90	0.016	
628.70	0.015	
629.40	0.015	
630.20	0.015	
630.90	0.015	
631.70	0.016	
632.40	0.016	
633.20	0.016	
633.90	0.016	
634.70	0.016	
635.40	0.016	
636.20	0.016	
636.90	0.015	
637.70	0.015	
638.40	0.015	
639.20	0.016	
639.90	0.016	
640.70	0.016	
641.40	0.016	
642.20	0.016	
642.90	0.015	
643.70	0.016	
644.50	0.015	
645.20	0.016	
646.00	0.016	
646.70	0.016	
647.50	0.016	
648.20	0.015	
649.00	0.015	
649.70	0.016	
650.50	0.016	
651.20	0.016	
652.00	0.016	
652.70	0.015	
653.50	0.015	
654.20	0.015	
655.00	0.016	
655.70	0.017	
656.50	0.017	
657.20	0.017	
658.00	0.017	
658.70	0.017	
659.50	0.017	
660.20	0.017	
661.00	0.017	
661.70	0.018	
662.50	0.019	
663.20	0.021	
664.00	0.023	
664.70	0.025	
665.50	0.026	
666.20	0.028	
667.00	0.029	
667.80	0.027	
668.50	0.023	
669.30	0.020	
670.00	0.018	
670.80	0.017	
671.60	0.016	
672.30	0.016	
673.10	0.016	
673.90	0.016	
674.60	0.016	
675.40	0.016	
676.20	0.016	
676.90	0.016	
677.70	0.016	
678.50	0.016	
679.20	0.016	
680.00	0.015	
680.70	0.015	
681.50	0.015	
682.30	0.016	
683.00	0.016	
683.80	0.016	
684.60	0.016	
685.30	0.016	
686.10	0.015	
686.90	0.016	
687.60	0.016	
688.40	0.016	
689.20	0.016	
689.90	0.016	
690.70	0.016	
691.50	0.016	
692.20	0.016	
693.00	0.016	
693.70	0.015	
694.50	0.015	
695.30	0.016	
696.00	0.017	
696.80	0.017	
697.60	0.017	
698.30	0.017	
699.10	0.017	
699.90	0.017	
700.60	0.018	
701.40	0.019	
702.20	0.020	
702.90	0.023	
703.70	0.029	
704.50	0.036	
705.20	0.041	
706.00	0.040	
706.80	0.033	
707.50	0.026	
708.30	0.021	
709.10	0.020	
709.90	0.018	
710.70	0.018	
711.50	0.017	
712.20	0.016	
713.00	0.016	
713.80	0.016	
714.60	0.016	
715.40	0.016	
716.20	0.016	
716.90	0.016	
717.70	0.015	
718.50	0.015	
719.30	0.015	
720.10	0.015	
720.90	0.016	
721.60	0.016	
722.40	0.016	
723.20	0.016	
724.00	0.016	
724.80	0.016	
725.60	0.017	
726.30	0.018	
727.10	0.018	
727.90	0.018	
728.70	0.018	
729.50	0.017	
730.30	0.016	
731.00	0.015	
731.80	0.016	
732.60	0.015	
733.40	0.016	
734.20	0.017	
735.00	0.017	
735.70	0.016	
736.50	0.016	
737.30	0.016	
738.10	0.016	
738.90	0.015	
739.70	0.015	
740.40	0.015	
741.20	0.015	
742.00	0.015	
742.80	0.015	
743.60	0.016	
744.40	0.016	
745.10	0.016	
745.90	0.016	
746.70	0.016	
747.50	0.016	
748.30	0.015	
749.10	0.016	
749.80	0.015	
750.60	0.015	
751.40	0.015	
752.20	0.016	
753.00	0.016	
753.80	0.016	
754.50	0.015	
755.30	0.016	
756.10	0.016	
756.90	0.016	
757.70	0.016	
758.50	0.016	
759.30	0.015	
760.00	0.015	
760.80	0.015	
761.60	0.015	
762.40	0.016	
763.20	0.016	
764.00	0.016	
764.70	0.016	
765.50	0.016	
766.30	0.016	
767.10	0.016	
767.90	0.016	
768.70	0.016	
769.40	0.015	
770.20	0.015	
771.00	0.015	
771.80	0.015	
772.60	0.015	
773.40	0.015	
774.10	0.015	
774.90	0.015	
775.70	0.015	
776.50	0.016	
777.30	0.016	
778.10	0.016	
778.80	0.016	
779.60	0.016	
780.40	0.016	
781.20	0.016	
782.00	0.015	
782.80	0.016	
783.50	0.015	
784.30	0.015	
785.10	0.015	
785.90	0.015	
786.70	0.015	
787.50	0.015	
788.20	0.016	
789.00	0.016	
789.80	0.016	
790.60	0.016	
791.40	0.016	
792.20	0.016	
792.90	0.015	
793.70	0.015	
794.50	0.015	
795.30	0.015	
796.10	0.015	
796.90	0.016	
797.60	0.016	
798.40	0.016	
799.20	0.015	
800.00	0.016	
800.80	0.015	
801.60	0.016	
802.30	0.015	
803.10	0.015	
803.90	0.014	
804.70	0.015	
805.50	0.016	
806.30	0.016	
807.10	0.016	
807.80	0.015	
808.60	0.015	
809.40	0.016	
810.20	0.016	
811.00	0.016	
811.80	0.015	
812.50	0.016	
813.30	0.016	
814.10	0.016	
814.90	0.016	
815.70	0.016	
816.50	0.016	
817.20	0.015	
818.00	0.015	
818.80	0.015	
819.60	0.015	
820.40	0.016	
821.20	0.015	
821.90	0.016	
822.70	0.015	
823.50	0.016	
824.30	0.015	
825.10	0.018	
825.90	0.018	
826.60	0.017	
827.40	0.015	
828.20	0.016	
829.00	0.016	
829.80	0.016	
830.60	0.015	
831.30	0.015	
832.20	0.016	
833.00	0.016	
833.80	0.016	
834.60	0.014	
835.50	0.014	
836.30	0.015	
837.10	0.016	
838.00	0.016	
838.80	0.016	
839.60	0.015	
840.50	0.015	
841.30	0.016	
842.10	0.016	
842.90	0.016	
843.80	0.015	
844.60	0.015	
845.40	0.015	
846.30	0.015	
847.10	0.015	
847.90	0.015	
848.80	0.015	
849.60	0.016	
850.40	0.016	
851.30	0.016	
852.10	0.016	
852.90	0.016	
853.70	0.016	
854.60	0.015	
855.40	0.015	
856.20	0.015	
857.10	0.015	
857.90	0.015	
858.70	0.015	
859.60	0.015	
860.40	0.015	
861.20	0.015	
862.10	0.015	
862.90	0.016	
863.70	0.016	
864.50	0.016	
865.40	0.015	
866.20	0.016	
867.00	0.016	
867.90	0.016	
868.70	0.015	
869.50	0.016	
870.40	0.015	
871.20	0.016	
872.00	0.016	
872.80	0.015	
873.70	0.015	
874.50	0.015	
875.30	0.016	
876.20	0.016	
877.00	0.016	
877.80	0.016	
878.70	0.015	
879.50	0.015	
880.30	0.015	
881.20	0.015	
882.00	0.015	
882.80	0.016	
883.60	0.016	
884.50	0.016	
885.30	0.015	
886.10	0.015	
887.00	0.015	
887.80	0.016	
888.60	0.015	
889.50	0.016	
890.30	0.016	
891.10	0.016	
892.00	0.016	
892.80	0.016	
893.60	0.016	
894.40	0.016	
895.30	0.016	
896.10	0.016	
896.90	0.015	
897.80	0.015	
898.60	0.015	
899.40	0.016	
Vernier Format 2
187_act9.txt 7/15/116 14:29:53
Run 2
Wavelength	Intensity	
W	I	
nm	rel	

380.50	0.017	
381.30	0.016	
382.20	0.015	
383.10	0.015	
384.00	0.016	
384.90	0.016	
385.80	0.016	
386.70	0.016	
387.60	0.016	
388.50	0.016	
389.40	0.016	
390.20	0.016	
391.10	0.016	
392.00	0.016	
392.90	0.016	
393.80	0.016	
394.70	0.016	
395.60	0.016	
396.50	0.016	
397.40	0.016	
398.30	0.016	
399.10	0.016	
400.00	0.016	
400.90	0.016	
401.80	0.016	
402.70	0.016	
403.60	0.016	
404.50	0.016	
405.40	0.016	
406.30	0.016	
407.20	0.016	
408.00	0.016	
408.90	0.015	
409.80	0.015	
410.70	0.015	
411.60	0.016	
412.50	0.016	
413.40	0.016	
414.30	0.017	
415.20	0.017	
416.00	0.017	
416.90	0.016	
417.80	0.017	
418.70	0.016	
419.60	0.016	
420.50	0.016	
421.40	0.016	
422.30	0.016	
423.20	0.016	
424.10	0.017	
424.90	0.018	
425.80	0.017	
426.70	0.017	
427.60	0.017	
428.50	0.017	
429.40	0.017	
430.30	0.016	
431.20	0.016	
432.10	0.016	
433.00	0.017	
433.80	0.017	
434.70	0.017	
435.60	0.017	
436.50	0.017	
437.40	0.016	
438.30	0.016	
439.20	0.016	
440.10	0.016	
441.00	0.016	
441.90	0.016	
442.70	0.017	
443.60	0.017	
444.50	0.017	
445.40	0.017	
446.30	0.017	
447.20	0.017	
448.10	0.016	
449.00	0.016	
449.90	0.016	
450.80	0.016	
451.60	0.017	
452.50	0.017	
453.40	0.016	
454.30	0.016	
455.20	0.016	
456.10	0.015	
457.00	0.015	
457.90	0.015	
458.80	0.016	
459.60	0.016	
460.50	0.016	
461.40	0.016	
462.30	0.017	
463.20	0.017	
464.10	0.016	
465.00	0.016	
465.90	0.016	
466.80	0.016	
467.70	0.016	
468.50	0.015	
469.40	0.016	
470.30	0.016	
471.20	0.016	
472.10	0.016	
473.00	0.016	
473.90	0.015	
474.80	0.015	
475.70	0.016	
476.60	0.016	
477.40	0.016	
478.30	0.015	
479.20	0.016	
480.10	0.016	
481.00	0.016	
481.90	0.016	
482.80	0.016	
483.70	0.017	
484.60	0.017	
485.50	0.017	
486.30	0.017	
487.20	0.018	
488.10	0.018	
489.00	0.018	
489.90	0.018	
490.80	0.017	
491.70	0.017	
492.60	0.017	
493.50	0.017	
494.40	0.017	
495.20	0.017	
496.10	0.018	
497.00	0.018	
497.90	0.018	
498.80	0.018	
499.70	0.018	
500.60	0.017	
501.50	0.017	
502.40	0.016	
503.20	0.016	
504.10	0.016	
505.00	0.016	
505.90	0.016	
506.80	0.016	
507.70	0.017	
508.60	0.017	
509.50	0.016	
510.40	0.015	
511.30	0.016	
512.20	0.016	
513.00	0.016	
513.80	0.016	
514.60	0.016	
515.50	0.016	
516.30	0.016	
517.10	0.016	
517.90	0.016	
518.80	0.016	
519.60	0.016	
520.40	0.016	
521.20	0.016	
522.10	0.015	
522.90	0.015	
523.70	0.015	
524.50	0.016	
525.40	0.015	
526.20	0.015	
527.00	0.015	
527.80	0.016	
528.70	0.016	
529.50	0.016	
530.30	0.017	
531.10	0.016	
532.00	0.016	
532.80	0.015	
533.60	0.016	
534.50	0.016	
535.30	0.016	
536.10	0.015	
536.90	0.015	
537.80	0.015	
538.60	0.015	
539.40	0.016	
540.20	0.017	
541.10	0.017	
541.90	0.016	
542.70	0.016	
543.50	0.016	
544.40	0.015	
545.20	0.016	
546.00	0.016	
546.80	0.017	
547.70	0.016	
548.50	0.017	
549.30	0.016	
550.10	0.017	
551.00	0.016	
551.80	0.016	
552.60	0.015	
553.50	0.016	
554.30	0.015	
555.10	0.015	
555.90	0.016	
556.80	0.016	
557.60	0.017	
558.40	0.017	
559.20	0.017	
560.10	0.017	
560.90	0.016	
561.70	0.017	
562.50	0.017	
563.40	0.017	
564.20	0.017	
565.00	0.016	
565.80	0.017	
566.70	0.017	
567.50	0.017	
568.30	0.017	
569.10	0.017	
570.00	0.017	
570.80	0.017	
571.60	0.017	
572.40	0.017	
573.30	0.017	
574.10	0.017	
574.90	0.018	
575.80	0.018	
576.60	0.019	
577.40	0.018	
578.20	0.020	
579.10	0.020	
579.90	0.022	
580.70	0.023	
581.50	0.024	
582.40	0.028	
583.20	0.038	
584.00	0.078	
584.80	0.155	
585.70	0.199	
586.50	0.170	
587.30	0.090	
588.10	0.036	
588.90	0.024	
589.60	0.022	
590.40	0.021	
591.10	0.020	
591.90	0.018	
592.60	0.018	
593.40	0.018	
594.10	0.018	
594.90	0.018	
595.60	0.017	
596.40	0.017	
597.10	0.017	
597.90	0.017	
598.60	0.016	
599.40	0.017	
600.10	0.017	
600.90	0.017	
601.60	0.017	
602.40	0.017	
603.10	0.017	
603.90	0.016	
604.60	0.017	
605.40	0.016	
606.10	0.017	
606.90	0.016	
607.70	0.016	
608.40	0.016	
609.20	0.016	
609.90	0.016	
610.70	0.016	
611.40	0.016	
612.20	0.015	
612.90	0.016	
613.70	0.016	
614.40	0.016	
615.20	0.015	
615.90	0.015	
616.70	0.016	
617.40	0.016	
618.20	0.016	
618.90	0.016	
619.70	0.017	
620.40	0.016	
621.20	0.016	
621.90	0.015	
622.70	0.015	
623.40	0.015	
624.20	0.016	
624.90	0.015	
625.70	0.016	
626.40	0.016	
627.20	0.016	
627.90	0.016	
628.70	0.015	
629.40	0.015	
630.20	0.015	
630.90	0.016	
631.70	0.016	
632.40	0.015	
633.20	0.016	
633.90	0.015	
634.70	0.016	
635.40	0.015	
636.20	0.016	
636.90	0.016	
637.70	0.016	
638.40	0.016	
639.20	0.016	
639.90	0.015	
640.70	0.016	
641.40	0.016	
642.20	0.016	
642.90	0.016	
643.70	0.016	
644.50	0.016	
645.20	0.016	
646.00	0.016	
646.70	0.016	
647.50	0.015	
648.20	0.015	
649.00	0.016	
649.70	0.016	
650.50	0.016	
651.20	0.016	
652.00	0.016	
652.70	0.016	
653.50	0.015	
654.20	0.015	
655.00	0.016	
655.70	0.017	
656.50	0.016	
657.20	0.016	
658.00	0.016	
658.70	0.016	
659.50	0.016	
660.20	0.016	
661.00	0.017	
661.70	0.018	
662.50	0.019	
663.20	0.020	
664.00	0.021	
664.70	0.023	
665.50	0.025	
666.20	0.027	
667.00	0.027	
667.80	0.026	
668.50	0.023	
669.30	0.020	
670.00	0.018	
670.80	0.018	
671.60	0.017	
672.30	0.017	
673.10	0.016	
673.90	0.016	
674.60	0.016	
675.40	0.016	
676.20	0.016	
676.90	0.016	
677.70	0.016	
678.50	0.015	
679.20	0.015	
680.00	0.016	
680.70	0.016	
681.50	0.017	
682.30	0.016	
683.00	0.017	
683.80	0.016	
684.60	0.016	
685.30	0.016	
686.10	0.016	
686.90	0.016	
687.60	0.016	
688.40	0.016	
689.20	0.016	
689.90	0.016	
690.70	0.016	
691.50	0.017	
692.20	0.016	
693.00	0.016	
693.70	0.016	
694.50	0.016	
695.30	0.016	
696.00	0.016	
696.80	0.016	
697.60	0.016	
698.30	0.016	
699.10	0.016	
699.90	0.017	
700.60	0.017	
701.40	0.017	
702.20	0.019	
702.90	0.022	
703.70	0.025	
704.50	0.029	
705.20	0.032	
706.00	0.034	
706.80	0.031	
707.50	0.025	
708.30	0.021	
709.10	0.020	
709.90	0.019	
710.70	0.018	
711.50	0.017	
712.20	0.016	
713.00	0.016	
713.80	0.016	
714.60	0.016	
715.40	0.017	
716.20	0.016	
716.90	0.017	
717.70	0.016	
718.50	0.016	
719.30	0.016	
720.10	0.016	
720.90	0.016	
721.60	0.016	
722.40	0.016	
723.20	0.016	
724.00	0.015	
724.80	0.016	
725.60	0.016	
726.30	0.017	
727.10	0.017	
727.90	0.017	
728.70	0.017	
729.50	0.017	
730.30	0.017	
731.00	0.016	
731.80	0.016	
732.60	0.016	
733.40	0.016	
734.20	0.016	
735.00	0.016	
735.70	0.016	
736.50	0.015	
737.30	0.015	
738.10	0.015	
738.90	0.015	
739.70	0.015	
740.40	0.015	
741.20	0.015	
742.00	0.016	
742.80	0.016	
743.60	0.016	
744.40	0.016	
745.10	0.016	
745.90	0.016	
746.70	0.016	
747.50	0.016	
748.30	0.016	
749.10	0.016	
749.80	0.016	
750.60	0.016	
751.40	0.016	
752.20	0.016	
753.00	0.016	
753.80	0.016	
754.50	0.016	
755.30	0.016	
756.10	0.015	
756.90	0.015	
757.70	0.016	
758.50	0.016	
759.30	0.016	
760.00	0.015	
760.80	0.016	
761.60	0.016	
762.40	0.016	
763.20	0.016	
764.00	0.016	
764.70	0.016	
765.50	0.016	
766.30	0.016	
767.10	0.016	
767.90	0.016	
768.70	0.016	
769.40	0.015	
770.20	0.016	
771.00	0.016	
771.80	0.016	
772.60	0.016	
773.40	0.016	
774.10	0.016	
774.90	0.016	
775.70	0.016	
776.50	0.016	
777.30	0.016	
778.10	0.016	
778.80	0.016	
779.60	0.016	
780.40	0.016	
781.20	0.016	
782.00	0.016	
782.80	0.016	
783.50	0.015	
784.30	0.015	
785.10	0.016	
785.90	0.015	
786.70	0.015	
787.50	0.015	
788.20	0.016	
789.00	0.016	
789.80	0.016	
790.60	0.015	
791.40	0.016	
792.20	0.016	
792.90	0.015	
793.70	0.015	
794.50	0.015	
795.30	0.016	
796.10	0.016	
796.90	0.016	
797.60	0.017	
798.40	0.017	
799.20	0.016	
800.00	0.016	
800.80	0.016	
801.60	0.016	
802.30	0.016	
803.10	0.015	
803.90	0.015	
804.70	0.015	
805.50	0.016	
806.30	0.016	
807.10	0.016	
807.80	0.015	
808.60	0.015	
809.40	0.015	
810.20	0.016	
811.00	0.016	
811.80	0.016	
812.50	0.015	
813.30	0.015	
814.10	0.015	
814.90	0.017	
815.70	0.016	
816.50	0.016	
817.20	0.015	
818.00	0.016	
818.80	0.016	
819.60	0.016	
820.40	0.016	
821.20	0.015	
821.90	0.015	
822.70	0.015	
823.50	0.015	
824.30	0.015	
825.10	0.018	
825.90	0.018	
826.60	0.018	
827.40	0.015	
828.20	0.015	
829.00	0.016	
829.80	0.016	
830.60	0.016	
831.30	0.016	
832.20	0.016	
833.00	0.015	
833.80	0.016	
834.60	0.015	
835.50	0.016	
836.30	0.015	
837.10	0.016	
838.00	0.015	
838.80	0.015	
839.60	0.016	
840.50	0.015	
841.30	0.016	
842.10	0.016	
842.90	0.016	
843.80	0.016	
844.60	0.016	
845.40	0.016	
846.30	0.015	
847.10	0.016	
847.90	0.016	
848.80	0.016	
849.60	0.016	
850.40	0.016	
851.30	0.016	
852.10	0.016	
852.90	0.016	
853.70	0.016	
854.60	0.016	
855.40	0.016	
856.20	0.016	
857.10	0.016	
857.90	0.016	
858.70	0.015	
859.60	0.016	
860.40	0.015	
861.20	0.016	
862.10	0.016	
862.90	0.016	
863.70	0.016	
864.50	0.016	
865.40	0.016	
866.20	0.016	
867.00	0.016	
867.90	0.016	
868.70	0.016	
869.50	0.016	
870.40	0.016	
871.20	0.016	
872.00	0.015	
872.80	0.015	
873.70	0.015	
874.50	0.016	
875.30	0.016	
876.20	0.016	
877.00	0.016	
877.80	0.016	
878.70	0.015	
879.50	0.015	
880.30	0.015	
881.20	0.016	
882.00	0.016	
882.80	0.016	
883.60	0.016	
884.50	0.016	
885.30	0.016	
886.10	0.016	
887.00	0.016	
887.80	0.015	
888.60	0.015	
889.50	0.015	
890.30	0.015	
891.10	0.015	
892.00	0.016	
892.80	0.016	
893.60	0.016	
894.40	0.016	
895.30	0.016	
896.10	0.016	
896.90	0.016	
897.80	0.015	
898.60	0.016	
899.40	0.015	
		
Vernier Format 2
187_act9.txt 7/15/116 14:29:53
Run 3
Wavelength	Intensity	
W	I	
nm	rel	

380.50	0.021	
381.30	0.021	
382.20	0.021	
383.10	0.022	
384.00	0.022	
384.90	0.022	
385.80	0.023	
386.70	0.023	
387.60	0.023	
388.50	0.022	
389.40	0.022	
390.20	0.022	
391.10	0.023	
392.00	0.023	
392.90	0.023	
393.80	0.024	
394.70	0.026	
395.60	0.027	
396.50	0.027	
397.40	0.027	
398.30	0.028	
399.10	0.028	
400.00	0.029	
400.90	0.030	
401.80	0.031	
402.70	0.032	
403.60	0.034	
404.50	0.036	
405.40	0.038	
406.30	0.041	
407.20	0.043	
408.00	0.047	
408.90	0.049	
409.80	0.053	
410.70	0.058	
411.60	0.064	
412.50	0.070	
413.40	0.077	
414.30	0.086	
415.20	0.095	
416.00	0.105	
416.90	0.115	
417.80	0.128	
418.70	0.139	
419.60	0.151	
420.50	0.163	
421.40	0.177	
422.30	0.190	
423.20	0.202	
424.10	0.215	
424.90	0.225	
425.80	0.236	
426.70	0.245	
427.60	0.255	
428.50	0.264	
429.40	0.274	
430.30	0.283	
431.20	0.292	
432.10	0.298	
433.00	0.307	
433.80	0.313	
434.70	0.321	
435.60	0.328	
436.50	0.334	
437.40	0.337	
438.30	0.339	
439.20	0.340	
440.10	0.339	
441.00	0.335	
441.90	0.329	
442.70	0.319	
443.60	0.308	
444.50	0.295	
445.40	0.280	
446.30	0.261	
447.20	0.243	
448.10	0.223	
449.00	0.202	
449.90	0.182	
450.80	0.163	
451.60	0.147	
452.50	0.129	
453.40	0.115	
454.30	0.101	
455.20	0.089	
456.10	0.080	
457.00	0.072	
457.90	0.066	
458.80	0.060	
459.60	0.056	
460.50	0.052	
461.40	0.050	
462.30	0.047	
463.20	0.046	
464.10	0.044	
465.00	0.042	
465.90	0.040	
466.80	0.040	
467.70	0.039	
468.50	0.038	
469.40	0.038	
470.30	0.038	
471.20	0.038	
472.10	0.038	
473.00	0.038	
473.90	0.038	
474.80	0.038	
475.70	0.038	
476.60	0.039	
477.40	0.039	
478.30	0.040	
479.20	0.041	
480.10	0.043	
481.00	0.045	
481.90	0.046	
482.80	0.047	
483.70	0.049	
484.60	0.050	
485.50	0.052	
486.30	0.054	
487.20	0.056	
488.10	0.060	
489.00	0.063	
489.90	0.067	
490.80	0.070	
491.70	0.074	
492.60	0.079	
493.50	0.084	
494.40	0.090	
495.20	0.096	
496.10	0.104	
497.00	0.111	
497.90	0.119	
498.80	0.127	
499.70	0.136	
500.60	0.145	
501.50	0.156	
502.40	0.167	
503.20	0.178	
504.10	0.190	
505.00	0.203	
505.90	0.216	
506.80	0.228	
507.70	0.243	
508.60	0.260	
509.50	0.275	
510.40	0.287	
511.30	0.299	
512.20	0.315	
513.00	0.330	
513.80	0.342	
514.60	0.356	
515.50	0.369	
516.30	0.382	
517.10	0.391	
517.90	0.402	
518.80	0.413	
519.60	0.422	
520.40	0.429	
521.20	0.437	
522.10	0.443	
522.90	0.448	
523.70	0.453	
524.50	0.458	
525.40	0.462	
526.20	0.465	
527.00	0.468	
527.80	0.468	
528.70	0.465	
529.50	0.462	
530.30	0.460	
531.10	0.454	
532.00	0.447	
532.80	0.443	
533.60	0.437	
534.50	0.431	
535.30	0.424	
536.10	0.419	
536.90	0.413	
537.80	0.407	
538.60	0.401	
539.40	0.397	
540.20	0.394	
541.10	0.391	
541.90	0.388	
542.70	0.388	
543.50	0.384	
544.40	0.381	
545.20	0.379	
546.00	0.383	
546.80	0.385	
547.70	0.385	
548.50	0.384	
549.30	0.386	
550.10	0.389	
551.00	0.389	
551.80	0.389	
552.60	0.392	
553.50	0.397	
554.30	0.399	
555.10	0.399	
555.90	0.401	
556.80	0.405	
557.60	0.406	
558.40	0.408	
559.20	0.412	
560.10	0.417	
560.90	0.421	
561.70	0.424	
562.50	0.430	
563.40	0.436	
564.20	0.442	
565.00	0.444	
565.80	0.448	
566.70	0.452	
567.50	0.457	
568.30	0.458	
569.10	0.460	
570.00	0.460	
570.80	0.461	
571.60	0.457	
572.40	0.454	
573.30	0.451	
574.10	0.448	
574.90	0.444	
575.80	0.438	
576.60	0.432	
577.40	0.425	
578.20	0.419	
579.10	0.412	
579.90	0.404	
580.70	0.396	
581.50	0.385	
582.40	0.378	
583.20	0.370	
584.00	0.363	
584.80	0.355	
585.70	0.347	
586.50	0.340	
587.30	0.332	
588.10	0.326	
588.90	0.319	
589.60	0.311	
590.40	0.304	
591.10	0.294	
591.90	0.287	
592.60	0.280	
593.40	0.274	
594.10	0.270	
594.90	0.261	
595.60	0.254	
596.40	0.248	
597.10	0.244	
597.90	0.240	
598.60	0.231	
599.40	0.223	
600.10	0.216	
600.90	0.214	
601.60	0.211	
602.40	0.206	
603.10	0.199	
603.90	0.193	
604.60	0.188	
605.40	0.183	
606.10	0.180	
606.90	0.178	
607.70	0.176	
608.40	0.174	
609.20	0.171	
609.90	0.169	
610.70	0.168	
611.40	0.166	
612.20	0.164	
612.90	0.160	
613.70	0.157	
614.40	0.157	
615.20	0.155	
615.90	0.151	
616.70	0.145	
617.40	0.143	
618.20	0.144	
618.90	0.146	
619.70	0.144	
620.40	0.141	
621.20	0.138	
621.90	0.138	
622.70	0.139	
623.40	0.139	
624.20	0.138	
624.90	0.135	
625.70	0.131	
626.40	0.129	
627.20	0.128	
627.90	0.129	
628.70	0.127	
629.40	0.126	
630.20	0.125	
630.90	0.127	
631.70	0.126	
632.40	0.124	
633.20	0.121	
633.90	0.119	
634.70	0.116	
635.40	0.113	
636.20	0.109	
636.90	0.105	
637.70	0.101	
638.40	0.098	
639.20	0.095	
639.90	0.091	
640.70	0.087	
641.40	0.084	
642.20	0.082	
642.90	0.079	
643.70	0.077	
644.50	0.074	
645.20	0.072	
646.00	0.070	
646.70	0.068	
647.50	0.066	
648.20	0.064	
649.00	0.062	
649.70	0.060	
650.50	0.058	
651.20	0.057	
652.00	0.055	
652.70	0.054	
653.50	0.052	
654.20	0.051	
655.00	0.050	
655.70	0.049	
656.50	0.047	
657.20	0.045	
658.00	0.044	
658.70	0.043	
659.50	0.042	
660.20	0.041	
661.00	0.040	
661.70	0.039	
662.50	0.039	
663.20	0.038	
664.00	0.037	
664.70	0.036	
665.50	0.036	
666.20	0.036	
667.00	0.035	
667.80	0.035	
668.50	0.034	
669.30	0.035	
670.00	0.034	
670.80	0.033	
671.60	0.032	
672.30	0.032	
673.10	0.032	
673.90	0.032	
674.60	0.032	
675.40	0.031	
676.20	0.031	
676.90	0.031	
677.70	0.031	
678.50	0.030	
679.20	0.030	
680.00	0.030	
680.70	0.029	
681.50	0.029	
682.30	0.029	
683.00	0.029	
683.80	0.029	
684.60	0.029	
685.30	0.029	
686.10	0.028	
686.90	0.028	
687.60	0.028	
688.40	0.028	
689.20	0.028	
689.90	0.027	
690.70	0.028	
691.50	0.027	
692.20	0.028	
693.00	0.027	
693.70	0.027	
694.50	0.026	
695.30	0.026	
696.00	0.026	
696.80	0.026	
697.60	0.026	
698.30	0.025	
699.10	0.025	
699.90	0.025	
700.60	0.025	
701.40	0.025	
702.20	0.024	
702.90	0.025	
703.70	0.025	
704.50	0.024	
705.20	0.024	
706.00	0.024	
706.80	0.024	
707.50	0.024	
708.30	0.024	
709.10	0.024	
709.90	0.024	
710.70	0.024	
711.50	0.024	
712.20	0.023	
713.00	0.022	
713.80	0.022	
714.60	0.022	
715.40	0.022	
716.20	0.022	
716.90	0.022	
717.70	0.021	
718.50	0.021	
719.30	0.021	
720.10	0.021	
720.90	0.021	
721.60	0.021	
722.40	0.022	
723.20	0.020	
724.00	0.020	
724.80	0.020	
725.60	0.021	
726.30	0.021	
727.10	0.020	
727.90	0.019	
728.70	0.020	
729.50	0.019	
730.30	0.019	
731.00	0.019	
731.80	0.019	
732.60	0.019	
733.40	0.019	
734.20	0.019	
735.00	0.019	
735.70	0.019	
736.50	0.019	
737.30	0.018	
738.10	0.019	
738.90	0.018	
739.70	0.018	
740.40	0.018	
741.20	0.018	
742.00	0.018	
742.80	0.018	
743.60	0.018	
744.40	0.019	
745.10	0.019	
745.90	0.019	
746.70	0.018	
747.50	0.018	
748.30	0.018	
749.10	0.018	
749.80	0.018	
750.60	0.018	
751.40	0.018	
752.20	0.019	
753.00	0.019	
753.80	0.019	
754.50	0.018	
755.30	0.018	
756.10	0.018	
756.90	0.019	
757.70	0.018	
758.50	0.018	
759.30	0.018	
760.00	0.018	
760.80	0.018	
761.60	0.018	
762.40	0.018	
763.20	0.018	
764.00	0.018	
764.70	0.018	
765.50	0.018	
766.30	0.018	
767.10	0.018	
767.90	0.019	
768.70	0.018	
769.40	0.019	
770.20	0.019	
771.00	0.018	
771.80	0.017	
772.60	0.017	
773.40	0.017	
774.10	0.018	
774.90	0.018	
775.70	0.018	
776.50	0.018	
777.30	0.018	
778.10	0.018	
778.80	0.017	
779.60	0.017	
780.40	0.017	
781.20	0.018	
782.00	0.018	
782.80	0.019	
783.50	0.019	
784.30	0.018	
785.10	0.018	
785.90	0.018	
786.70	0.017	
787.50	0.016	
788.20	0.016	
789.00	0.017	
789.80	0.017	
790.60	0.017	
791.40	0.018	
792.20	0.018	
792.90	0.017	
793.70	0.017	
794.50	0.016	
795.30	0.017	
796.10	0.018	
796.90	0.018	
797.60	0.018	
798.40	0.017	
799.20	0.017	
800.00	0.018	
800.80	0.017	
801.60	0.017	
802.30	0.017	
803.10	0.017	
803.90	0.016	
804.70	0.016	
805.50	0.017	
806.30	0.017	
807.10	0.018	
807.80	0.017	
808.60	0.017	
809.40	0.017	
810.20	0.017	
811.00	0.017	
811.80	0.016	
812.50	0.016	
813.30	0.016	
814.10	0.017	
814.90	0.017	
815.70	0.017	
816.50	0.017	
817.20	0.016	
818.00	0.016	
818.80	0.016	
819.60	0.017	
820.40	0.018	
821.20	0.018	
821.90	0.017	
822.70	0.017	
823.50	0.017	
824.30	0.016	
825.10	0.019	
825.90	0.019	
826.60	0.018	
827.40	0.017	
828.20	0.017	
829.00	0.017	
829.80	0.017	
830.60	0.017	
831.30	0.017	
832.20	0.017	
833.00	0.017	
833.80	0.017	
834.60	0.017	
835.50	0.016	
836.30	0.017	
837.10	0.018	
838.00	0.018	
838.80	0.017	
839.60	0.017	
840.50	0.017	
841.30	0.017	
842.10	0.017	
842.90	0.017	
843.80	0.017	
844.60	0.017	
845.40	0.017	
846.30	0.016	
847.10	0.016	
847.90	0.017	
848.80	0.017	
849.60	0.018	
850.40	0.017	
851.30	0.017	
852.10	0.016	
852.90	0.016	
853.70	0.017	
854.60	0.017	
855.40	0.017	
856.20	0.017	
857.10	0.017	
857.90	0.018	
858.70	0.017	
859.60	0.017	
860.40	0.016	
861.20	0.017	
862.10	0.017	
862.90	0.016	
863.70	0.016	
864.50	0.017	
865.40	0.016	
866.20	0.016	
867.00	0.017	
867.90	0.017	
868.70	0.017	
869.50	0.016	
870.40	0.016	
871.20	0.016	
872.00	0.016	
872.80	0.017	
873.70	0.017	
874.50	0.017	
875.30	0.017	
876.20	0.016	
877.00	0.016	
877.80	0.016	
878.70	0.016	
879.50	0.016	
880.30	0.017	
881.20	0.017	
882.00	0.017	
882.80	0.016	
883.60	0.016	
884.50	0.016	
885.30	0.016	
886.10	0.016	
887.00	0.016	
887.80	0.017	
888.60	0.016	
889.50	0.016	
890.30	0.017	
891.10	0.017	
892.00	0.017	
892.80	0.017	
893.60	0.016	
894.40	0.017	
895.30	0.017	
896.10	0.017	
896.90	0.017	
897.80	0.016	
898.60	0.016	
899.40	0.016	
