Wavelength	Intensity	
W	I	
nm	rel	

380.50	0.016	
381.30	0.015	
382.20	0.016	
383.10	0.016	
384.00	0.016	
384.90	0.015	
385.80	0.015	
386.70	0.016	
387.60	0.017	
388.50	0.016	
389.40	0.016	
390.20	0.016	
391.10	0.016	
392.00	0.016	
392.90	0.016	
393.80	0.016	
394.70	0.016	
395.60	0.017	
396.50	0.017	
397.40	0.017	
398.30	0.016	
399.10	0.016	
400.00	0.015	
400.90	0.016	
401.80	0.016	
402.70	0.016	
403.60	0.016	
404.50	0.016	
405.40	0.017	
406.30	0.017	
407.20	0.017	
408.00	0.017	
408.90	0.017	
409.80	0.017	
410.70	0.017	
411.60	0.017	
412.50	0.017	
413.40	0.018	
414.30	0.018	
415.20	0.018	
416.00	0.018	
416.90	0.017	
417.80	0.017	
418.70	0.018	
419.60	0.018	
420.50	0.018	
421.40	0.018	
422.30	0.018	
423.20	0.018	
424.10	0.018	
424.90	0.018	
425.80	0.018	
426.70	0.018	
427.60	0.018	
428.50	0.018	
429.40	0.018	
430.30	0.018	
431.20	0.019	
432.10	0.019	
433.00	0.019	
433.80	0.019	
434.70	0.019	
435.60	0.019	
436.50	0.019	
437.40	0.019	
438.30	0.020	
439.20	0.019	
440.10	0.019	
441.00	0.019	
441.90	0.019	
442.70	0.019	
443.60	0.020	
444.50	0.021	
445.40	0.021	
446.30	0.020	
447.20	0.021	
448.10	0.020	
449.00	0.021	
449.90	0.020	
450.80	0.021	
451.60	0.021	
452.50	0.021	
453.40	0.020	
454.30	0.020	
455.20	0.020	
456.10	0.020	
457.00	0.020	
457.90	0.019	
458.80	0.020	
459.60	0.020	
460.50	0.020	
461.40	0.021	
462.30	0.020	
463.20	0.020	
464.10	0.019	
465.00	0.020	
465.90	0.020	
466.80	0.020	
467.70	0.020	
468.50	0.020	
469.40	0.020	
470.30	0.020	
471.20	0.019	
472.10	0.019	
473.00	0.019	
473.90	0.019	
474.80	0.019	
475.70	0.019	
476.60	0.019	
477.40	0.019	
478.30	0.020	
479.20	0.020	
480.10	0.020	
481.00	0.020	
481.90	0.020	
482.80	0.021	
483.70	0.021	
484.60	0.020	
485.50	0.020	
486.30	0.020	
487.20	0.020	
488.10	0.020	
489.00	0.020	
489.90	0.020	
490.80	0.020	
491.70	0.020	
492.60	0.020	
493.50	0.019	
494.40	0.019	
495.20	0.020	
496.10	0.021	
497.00	0.021	
497.90	0.021	
498.80	0.020	
499.70	0.020	
500.60	0.021	
501.50	0.021	
502.40	0.021	
503.20	0.021	
504.10	0.021	
505.00	0.021	
505.90	0.022	
506.80	0.022	
507.70	0.022	
508.60	0.023	
509.50	0.023	
510.40	0.023	
511.30	0.023	
512.20	0.024	
513.00	0.024	
513.80	0.024	
514.60	0.025	
515.50	0.026	
516.30	0.025	
517.10	0.026	
517.90	0.026	
518.80	0.026	
519.60	0.026	
520.40	0.027	
521.20	0.027	
522.10	0.028	
522.90	0.028	
523.70	0.028	
524.50	0.028	
525.40	0.028	
526.20	0.028	
527.00	0.028	
527.80	0.028	
528.70	0.029	
529.50	0.029	
530.30	0.029	
531.10	0.028	
532.00	0.028	
532.80	0.028	
533.60	0.029	
534.50	0.029	
535.30	0.028	
536.10	0.028	
536.90	0.027	
537.80	0.027	
538.60	0.028	
539.40	0.028	
540.20	0.028	
541.10	0.028	
541.90	0.028	
542.70	0.028	
543.50	0.027	
544.40	0.027	
545.20	0.027	
546.00	0.028	
546.80	0.028	
547.70	0.028	
548.50	0.027	
549.30	0.028	
550.10	0.029	
551.00	0.029	
551.80	0.028	
552.60	0.028	
553.50	0.028	
554.30	0.028	
555.10	0.028	
555.90	0.028	
556.80	0.028	
557.60	0.028	
558.40	0.028	
559.20	0.028	
560.10	0.028	
560.90	0.029	
561.70	0.028	
562.50	0.028	
563.40	0.027	
564.20	0.028	
565.00	0.027	
565.80	0.028	
566.70	0.028	
567.50	0.027	
568.30	0.027	
569.10	0.027	
570.00	0.027	
570.80	0.027	
571.60	0.027	
572.40	0.027	
573.30	0.027	
574.10	0.026	
574.90	0.026	
575.80	0.026	
576.60	0.026	
577.40	0.026	
578.20	0.025	
579.10	0.025	
579.90	0.025	
580.70	0.025	
581.50	0.025	
582.40	0.025	
583.20	0.024	
584.00	0.024	
584.80	0.024	
585.70	0.024	
586.50	0.024	
587.30	0.024	
588.10	0.023	
588.90	0.023	
589.60	0.023	
590.40	0.023	
591.10	0.023	
591.90	0.023	
592.60	0.023	
593.40	0.023	
594.10	0.023	
594.90	0.023	
595.60	0.023	
596.40	0.023	
597.10	0.023	
597.90	0.023	
598.60	0.023	
599.40	0.023	
600.10	0.022	
600.90	0.023	
601.60	0.022	
602.40	0.022	
603.10	0.022	
603.90	0.021	
604.60	0.021	
605.40	0.021	
606.10	0.021	
606.90	0.021	
607.70	0.021	
608.40	0.021	
609.20	0.021	
609.90	0.021	
610.70	0.021	
611.40	0.021	
612.20	0.020	
612.90	0.020	
613.70	0.020	
614.40	0.020	
615.20	0.020	
615.90	0.020	
616.70	0.020	
617.40	0.020	
618.20	0.020	
618.90	0.020	
619.70	0.020	
620.40	0.020	
621.20	0.021	
621.90	0.021	
622.70	0.021	
623.40	0.021	
624.20	0.020	
624.90	0.020	
625.70	0.020	
626.40	0.021	
627.20	0.020	
627.90	0.020	
628.70	0.020	
629.40	0.020	
630.20	0.019	
630.90	0.019	
631.70	0.020	
632.40	0.021	
633.20	0.021	
633.90	0.021	
634.70	0.020	
635.40	0.020	
636.20	0.020	
636.90	0.019	
637.70	0.020	
638.40	0.020	
639.20	0.020	
639.90	0.020	
640.70	0.020	
641.40	0.019	
642.20	0.019	
642.90	0.019	
643.70	0.019	
644.50	0.019	
645.20	0.019	
646.00	0.019	
646.70	0.019	
647.50	0.020	
648.20	0.019	
649.00	0.018	
649.70	0.018	
650.50	0.018	
651.20	0.019	
652.00	0.018	
652.70	0.018	
653.50	0.017	
654.20	0.018	
655.00	0.018	
655.70	0.018	
656.50	0.018	
657.20	0.018	
658.00	0.017	
658.70	0.017	
659.50	0.017	
660.20	0.017	
661.00	0.018	
661.70	0.018	
662.50	0.017	
663.20	0.017	
664.00	0.017	
664.70	0.018	
665.50	0.017	
666.20	0.017	
667.00	0.016	
667.80	0.017	
668.50	0.017	
669.30	0.017	
670.00	0.017	
670.80	0.017	
671.60	0.017	
672.30	0.017	
673.10	0.017	
673.90	0.017	
674.60	0.016	
675.40	0.017	
676.20	0.017	
676.90	0.017	
677.70	0.017	
678.50	0.017	
679.20	0.017	
680.00	0.017	
680.70	0.017	
681.50	0.017	
682.30	0.017	
683.00	0.017	
683.80	0.017	
684.60	0.017	
685.30	0.017	
686.10	0.017	
686.90	0.017	
687.60	0.017	
688.40	0.017	
689.20	0.017	
689.90	0.018	
690.70	0.018	
691.50	0.018	
692.20	0.018	
693.00	0.018	
693.70	0.018	
694.50	0.018	
695.30	0.019	
696.00	0.018	
696.80	0.019	
697.60	0.018	
698.30	0.018	
699.10	0.018	
699.90	0.018	
700.60	0.018	
701.40	0.019	
702.20	0.019	
702.90	0.019	
703.70	0.019	
704.50	0.018	
705.20	0.018	
706.00	0.018	
706.80	0.019	
707.50	0.019	
708.30	0.019	
709.10	0.019	
709.90	0.019	
710.70	0.019	
711.50	0.019	
712.20	0.018	
713.00	0.019	
713.80	0.018	
714.60	0.018	
715.40	0.018	
716.20	0.018	
716.90	0.018	
717.70	0.018	
718.50	0.018	
719.30	0.018	
720.10	0.018	
720.90	0.018	
721.60	0.017	
722.40	0.018	
723.20	0.018	
724.00	0.018	
724.80	0.018	
725.60	0.018	
726.30	0.018	
727.10	0.018	
727.90	0.018	
728.70	0.017	
729.50	0.017	
730.30	0.017	
731.00	0.017	
731.80	0.018	
732.60	0.018	
733.40	0.018	
734.20	0.018	
735.00	0.018	
735.70	0.017	
736.50	0.017	
737.30	0.017	
738.10	0.017	
738.90	0.017	
739.70	0.018	
740.40	0.018	
741.20	0.018	
742.00	0.017	
742.80	0.017	
743.60	0.018	
744.40	0.018	
745.10	0.018	
745.90	0.018	
746.70	0.017	
747.50	0.017	
748.30	0.017	
749.10	0.017	
749.80	0.018	
750.60	0.018	
751.40	0.018	
752.20	0.017	
753.00	0.017	
753.80	0.017	
754.50	0.017	
755.30	0.017	
756.10	0.018	
756.90	0.018	
757.70	0.018	
758.50	0.017	
759.30	0.017	
760.00	0.017	
760.80	0.017	
761.60	0.018	
762.40	0.017	
763.20	0.017	
764.00	0.017	
764.70	0.017	
765.50	0.017	
766.30	0.017	
767.10	0.017	
767.90	0.017	
768.70	0.017	
769.40	0.017	
770.20	0.017	
771.00	0.016	
771.80	0.016	
772.60	0.017	
773.40	0.017	
774.10	0.017	
774.90	0.017	
775.70	0.017	
776.50	0.017	
777.30	0.017	
778.10	0.017	
778.80	0.016	
779.60	0.016	
780.40	0.017	
781.20	0.017	
782.00	0.017	
782.80	0.017	
783.50	0.016	
784.30	0.016	
785.10	0.016	
785.90	0.017	
786.70	0.017	
787.50	0.017	
788.20	0.017	
789.00	0.017	
789.80	0.016	
790.60	0.016	
791.40	0.016	
792.20	0.016	
792.90	0.016	
793.70	0.016	
794.50	0.016	
795.30	0.016	
796.10	0.016	
796.90	0.017	
797.60	0.017	
798.40	0.017	
799.20	0.016	
800.00	0.016	
800.80	0.016	
801.60	0.016	
802.30	0.016	
803.10	0.016	
803.90	0.016	
804.70	0.016	
805.50	0.016	
806.30	0.017	
807.10	0.017	
807.80	0.016	
808.60	0.016	
809.40	0.016	
810.20	0.016	
811.00	0.016	
811.80	0.016	
812.50	0.016	
813.30	0.016	
814.10	0.016	
814.90	0.016	
815.70	0.016	
816.50	0.016	
817.20	0.015	
818.00	0.015	
818.80	0.015	
819.60	0.016	
820.40	0.016	
821.20	0.016	
821.90	0.016	
822.70	0.015	
823.50	0.016	
824.30	0.016	
825.10	0.017	
825.90	0.017	
826.60	0.017	
827.40	0.016	
828.20	0.016	
829.00	0.016	
829.80	0.016	
830.60	0.016	
831.30	0.016	
832.20	0.016	
833.00	0.016	
833.80	0.016	
834.60	0.016	
835.50	0.016	
836.30	0.016	
837.10	0.016	
838.00	0.016	
838.80	0.015	
839.60	0.015	
840.50	0.015	
841.30	0.016	
842.10	0.016	
842.90	0.016	
843.80	0.016	
844.60	0.016	
845.40	0.016	
846.30	0.015	
847.10	0.015	
847.90	0.015	
848.80	0.015	
849.60	0.015	
850.40	0.016	
851.30	0.016	
852.10	0.016	
852.90	0.016	
853.70	0.016	
854.60	0.016	
855.40	0.016	
856.20	0.016	
857.10	0.015	
857.90	0.016	
858.70	0.015	
859.60	0.015	
860.40	0.015	
861.20	0.015	
862.10	0.016	
862.90	0.016	
863.70	0.017	
864.50	0.016	
865.40	0.015	
866.20	0.015	
867.00	0.016	
867.90	0.016	
868.70	0.016	
869.50	0.016	
870.40	0.015	
871.20	0.015	
872.00	0.016	
872.80	0.015	
873.70	0.016	
874.50	0.016	
875.30	0.016	
876.20	0.016	
877.00	0.015	
877.80	0.015	
878.70	0.015	
879.50	0.015	
880.30	0.015	
881.20	0.016	
882.00	0.016	
882.80	0.016	
883.60	0.016	
884.50	0.016	
885.30	0.016	
886.10	0.016	
887.00	0.016	
887.80	0.016	
888.60	0.016	
889.50	0.016	
890.30	0.016	
891.10	0.016	
892.00	0.016	
892.80	0.015	
893.60	0.015	
894.40	0.015	
895.30	0.016	
896.10	0.016	
896.90	0.016	
897.80	0.015	
898.60	0.016	
899.40	0.015	
900.30	0.015	
901.10	0.015	
901.90	0.015	
902.80	0.016	
903.60	0.016	
904.40	0.016	
905.20	0.016	
906.10	0.016	
906.90	0.017	
907.70	0.016	
908.60	0.015	
909.40	0.015	
910.20	0.015	
911.10	0.016	
911.90	0.016	
912.70	0.016	
913.50	0.016	
914.40	0.016	
915.20	0.016	
916.00	0.016	
916.90	0.016	
917.70	0.016	
918.50	0.016	
919.40	0.016	
920.20	0.016	
921.00	0.016	
921.90	0.016	
922.70	0.016	
923.50	0.016	
924.30	0.016	
925.20	0.016	
926.00	0.016	
926.80	0.016	
927.70	0.015	
928.50	0.016	
929.30	0.015	
930.20	0.016	
931.00	0.016	
931.80	0.016	
932.70	0.015	
933.50	0.016	
934.30	0.016	
935.10	0.016	
936.00	0.016	
936.80	0.015	
937.60	0.015	
938.50	0.015	
939.30	0.015	
940.20	0.015	
941.00	0.016	
941.80	0.016	
942.60	0.016	
943.50	0.015	
944.30	0.016	
945.10	0.016	
946.00	0.016	
946.80	0.016	
947.60	0.016	
948.50	0.016	
949.30	0.017	